PE UV       SUBTECH     SPECTRUM    ASCII       PEDS        4.00        
   -1
SampleCrBSO.Sample.asc
11/01/16
04:53:14.00
11/01/16
04:53:14.00
PerkinElmer Method Developer

250.000000
1
Lambda 35
502S12111107
PerkinElmer UV WinLab 6.0.4.0738 / Lambda35 1.27

480
2
1
0
0
Both on
1
1
1
None
0
0
0
0
 
 
0
0
0
0
0
 
 
 
0
 
0
326
0
 
0
 
 
 
0
0
0
 
0
 
 
 
0
 
 
0
0
0
0
0
 
 
 
 
0
0


0
0
#HDR
-1
-1
#GR
nm
%T
1.0
0.0
900.000000
-1.000000
651
8
81.662568
0.095877
#DATA
900.000000	81.323716
899.000000	81.340040
898.000000	81.278449
897.000000	81.106917
896.000000	81.348602
895.000000	81.136811
894.000000	81.135143
893.000000	81.197510
892.000000	81.319389
891.000000	81.135449
890.000000	81.278289
889.000000	81.245944
888.000000	81.237805
887.000000	81.381939
886.000000	81.176589
885.000000	81.309164
884.000000	81.190621
883.000000	81.241449
882.000000	80.970244
881.000000	81.292690
880.000000	81.105215
879.000000	81.286789
878.000000	81.307116
877.000000	81.048843
876.000000	81.291656
875.000000	81.340308
874.000000	81.227943
873.000000	81.119135
872.000000	81.256190
871.000000	81.350701
870.000000	81.275526
869.000000	81.251642
868.000000	81.166439
867.000000	81.253297
866.000000	81.363829
865.000000	81.232107
864.000000	81.088551
863.000000	81.186694
862.000000	81.204652
861.000000	81.194525
860.000000	81.304954
859.000000	81.041052
858.000000	81.158563
857.000000	81.339093
856.000000	81.174691
855.000000	81.172840
854.000000	81.073462
853.000000	81.164458
852.000000	81.351410
851.000000	81.036924
850.000000	81.186552
849.000000	81.165282
848.000000	81.149828
847.000000	81.186599
846.000000	81.160455
845.000000	81.302914
844.000000	81.220089
843.000000	81.226540
842.000000	81.051877
841.000000	81.107186
840.000000	80.891368
839.000000	81.168328
838.000000	81.050127
837.000000	81.161348
836.000000	81.139718
835.000000	81.185037
834.000000	81.208651
833.000000	80.942327
832.000000	81.220788
831.000000	81.177585
830.000000	81.146993
829.000000	81.042839
828.000000	81.194962
827.000000	81.043788
826.000000	81.208166
825.000000	81.051399
824.000000	81.090423
823.000000	80.944952
822.000000	81.177455
821.000000	81.116621
820.000000	81.195628
819.000000	81.076563
818.000000	81.039381
817.000000	81.158774
816.000000	81.020964
815.000000	81.116740
814.000000	81.093255
813.000000	81.017721
812.000000	81.038124
811.000000	80.961635
810.000000	81.049708
809.000000	81.027975
808.000000	80.888298
807.000000	81.178623
806.000000	81.047271
805.000000	80.965815
804.000000	81.068525
803.000000	81.113507
802.000000	81.061360
801.000000	81.000993
800.000000	81.134470
799.000000	81.028496
798.000000	81.072294
797.000000	81.014748
796.000000	80.942961
795.000000	80.976440
794.000000	81.018773
793.000000	81.026260
792.000000	81.046862
791.000000	81.180145
790.000000	80.982602
789.000000	81.054645
788.000000	80.899858
787.000000	81.058952
786.000000	81.050565
785.000000	80.978320
784.000000	80.997495
783.000000	81.128892
782.000000	81.028012
781.000000	80.945660
780.000000	81.005859
779.000000	80.958577
778.000000	81.009980
777.000000	80.966063
776.000000	81.016086
775.000000	80.996430
774.000000	80.971682
773.000000	80.936707
772.000000	80.999084
771.000000	80.937769
770.000000	80.989289
769.000000	80.952893
768.000000	80.964672
767.000000	80.971051
766.000000	80.990493
765.000000	80.882668
764.000000	80.907677
763.000000	80.845931
762.000000	80.837971
761.000000	80.908750
760.000000	80.883771
759.000000	80.853111
758.000000	80.844589
757.000000	80.871839
756.000000	80.880000
755.000000	80.947812
754.000000	80.759197
753.000000	80.790930
752.000000	80.780078
751.000000	80.826728
750.000000	80.729997
749.000000	80.801318
748.000000	80.761672
747.000000	80.760650
746.000000	80.864624
745.000000	80.757801
744.000000	80.699894
743.000000	80.801061
742.000000	80.698871
741.000000	80.713566
740.000000	80.695247
739.000000	80.717655
738.000000	80.725443
737.000000	80.656432
736.000000	80.702219
735.000000	80.678450
734.000000	80.673515
733.000000	80.673158
732.000000	80.742152
731.000000	80.581857
730.000000	80.670758
729.000000	80.630654
728.000000	80.681518
727.000000	80.619048
726.000000	80.665644
725.000000	80.637307
724.000000	80.704076
723.000000	80.581857
722.000000	80.611705
721.000000	80.564081
720.000000	80.567767
719.000000	80.561292
718.000000	80.578666
717.000000	80.559529
716.000000	80.625497
715.000000	80.522439
714.000000	80.552463
713.000000	80.559092
712.000000	80.537731
711.000000	80.622213
710.000000	80.445505
709.000000	80.494797
708.000000	80.485215
707.000000	80.499336
706.000000	80.523966
705.000000	80.482748
704.000000	80.433743
703.000000	80.454207
702.000000	80.428427
701.000000	80.378703
700.000000	80.407490
699.000000	80.441960
698.000000	80.417421
697.000000	80.432582
696.000000	80.409185
695.000000	80.380354
694.000000	80.410557
693.000000	80.379713
692.000000	80.352000
691.000000	80.378970
690.000000	80.390900
689.000000	80.365443
688.000000	80.410169
687.000000	80.387124
686.000000	80.359147
685.000000	80.336898
684.000000	80.340234
683.000000	80.109966
682.000000	80.304650
681.000000	80.165554
680.000000	80.310078
679.000000	80.349695
678.000000	80.224599
677.000000	80.269202
676.000000	80.351515
675.000000	80.211787
674.000000	80.326290
673.000000	80.198654
672.000000	80.229762
671.000000	80.253178
670.000000	80.306919
669.000000	80.253246
668.000000	80.306837
667.000000	80.287639
666.000000	80.223124
665.000000	80.277778
664.000000	80.273417
663.000000	80.184652
662.000000	80.416667
661.000000	80.224179
660.000000	80.209223
659.000000	80.283870
658.000000	80.293412
657.000000	80.270803
656.000000	80.182244
655.000000	80.106553
654.000000	80.190689
653.000000	80.243889
652.000000	80.153159
651.000000	80.244746
650.000000	80.238374
649.000000	80.232991
648.000000	80.304401
647.000000	80.210605
646.000000	80.339560
645.000000	80.233918
644.000000	80.233856
643.000000	80.250850
642.000000	80.264626
641.000000	80.276228
640.000000	80.163491
639.000000	80.167791
638.000000	80.097602
637.000000	80.112431
636.000000	80.170995
635.000000	80.166649
634.000000	80.258968
633.000000	80.056239
632.000000	80.207006
631.000000	80.143236
630.000000	80.056224
629.000000	80.101851
628.000000	80.152834
627.000000	80.102880
626.000000	80.105073
625.000000	80.114571
624.000000	80.044546
623.000000	80.113606
622.000000	80.091315
621.000000	80.066851
620.000000	80.031839
619.000000	80.130518
618.000000	80.080654
617.000000	80.077503
616.000000	80.021209
615.000000	80.092347
614.000000	80.076445
613.000000	80.032924
612.000000	79.968161
611.000000	79.898192
610.000000	79.956531
609.000000	80.025472
608.000000	79.996816
607.000000	79.939516
606.000000	79.972412
605.000000	80.026546
604.000000	79.960718
603.000000	79.959632
602.000000	79.934158
601.000000	79.970255
600.000000	79.894854
599.000000	79.943653
598.000000	79.894770
597.000000	79.936187
596.000000	79.897894
595.000000	80.007460
594.000000	79.849752
593.000000	79.907190
592.000000	79.954077
591.000000	79.836556
590.000000	79.841770
589.000000	79.842764
588.000000	79.920669
587.000000	79.889438
586.000000	79.789575
585.000000	79.763568
584.000000	79.949389
583.000000	79.871740
582.000000	79.871567
581.000000	79.903867
580.000000	79.853005
579.000000	79.808576
578.000000	79.919853
577.000000	79.785563
576.000000	79.717058
575.000000	79.722553
574.000000	79.634351
573.000000	79.888147
572.000000	79.690554
571.000000	79.749932
570.000000	79.755102
569.000000	79.796219
568.000000	79.735395
567.000000	79.646886
566.000000	79.657411
565.000000	79.681362
564.000000	79.550415
563.000000	79.670090
562.000000	79.674175
561.000000	79.730839
560.000000	79.724108
559.000000	79.515961
558.000000	79.620489
557.000000	79.662878
556.000000	79.658598
555.000000	79.668095
554.000000	79.650396
553.000000	79.599692
552.000000	79.476751
551.000000	79.521452
550.000000	79.677171
549.000000	79.539445
548.000000	79.590711
547.000000	79.708625
546.000000	79.594990
545.000000	79.640157
544.000000	79.533035
543.000000	79.543571
542.000000	79.582136
541.000000	79.458114
540.000000	79.523941
539.000000	79.553017
538.000000	79.603620
537.000000	79.548355
536.000000	79.495724
535.000000	79.450000
534.000000	79.502449
533.000000	79.522431
532.000000	79.405863
531.000000	79.406515
530.000000	79.394853
529.000000	79.367562
528.000000	79.416704
527.000000	79.450137
526.000000	79.415723
525.000000	79.317506
524.000000	79.257679
523.000000	79.276390
522.000000	79.284910
521.000000	79.467509
520.000000	79.346169
519.000000	79.177494
518.000000	79.277749
517.000000	79.234385
516.000000	79.265941
515.000000	79.212589
514.000000	79.369236
513.000000	79.318596
512.000000	79.032258
511.000000	79.131925
510.000000	79.202882
509.000000	79.180985
508.000000	79.196095
507.000000	79.172414
506.000000	79.200460
505.000000	79.171475
504.000000	79.206891
503.000000	79.192259
502.000000	79.202693
501.000000	79.141746
500.000000	79.143140
499.000000	79.112226
498.000000	79.069224
497.000000	79.022534
496.000000	79.029138
495.000000	79.011402
494.000000	79.014964
493.000000	78.921916
492.000000	78.951727
491.000000	78.995488
490.000000	78.937675
489.000000	79.074759
488.000000	78.811586
487.000000	78.872649
486.000000	78.929665
485.000000	78.925794
484.000000	78.829781
483.000000	78.827164
482.000000	78.791009
481.000000	78.806898
480.000000	78.864623
479.000000	78.733836
478.000000	78.771671
477.000000	78.691358
476.000000	78.640837
475.000000	78.701750
474.000000	78.799776
473.000000	78.650560
472.000000	78.609492
471.000000	78.447408
470.000000	78.662622
469.000000	78.426026
468.000000	78.449099
467.000000	78.237020
466.000000	78.291496
465.000000	78.462033
464.000000	78.491224
463.000000	78.195343
462.000000	78.374862
461.000000	78.183240
460.000000	78.540012
459.000000	78.298851
458.000000	78.015307
457.000000	78.099583
456.000000	78.167331
455.000000	78.253905
454.000000	78.041603
453.000000	78.346138
452.000000	78.207464
451.000000	78.051588
450.000000	77.906029
449.000000	77.980087
448.000000	77.977944
447.000000	78.179440
446.000000	77.547222
445.000000	77.854214
444.000000	78.044693
443.000000	77.734101
442.000000	78.105129
441.000000	77.866005
440.000000	77.854499
439.000000	77.753888
438.000000	77.853075
437.000000	77.686670
436.000000	77.637807
435.000000	77.628881
434.000000	77.570987
433.000000	77.591452
432.000000	77.901502
431.000000	77.378277
430.000000	77.685388
429.000000	77.472277
428.000000	77.682043
427.000000	77.259520
426.000000	77.503852
425.000000	77.739036
424.000000	77.555954
423.000000	77.421379
422.000000	77.703130
421.000000	77.122940
420.000000	77.275261
419.000000	77.446196
418.000000	77.186220
417.000000	77.231963
416.000000	77.221456
415.000000	77.168950
414.000000	77.184347
413.000000	77.118365
412.000000	77.152565
411.000000	77.030066
410.000000	77.024198
409.000000	76.985195
408.000000	76.856708
407.000000	76.787080
406.000000	76.978971
405.000000	76.753369
404.000000	76.834110
403.000000	76.704841
402.000000	76.786337
401.000000	76.592203
400.000000	76.825285
399.000000	76.520121
398.000000	76.692801
397.000000	76.521194
396.000000	76.412887
395.000000	76.525992
394.000000	76.229434
393.000000	76.302059
392.000000	76.442928
391.000000	76.595152
390.000000	76.259798
389.000000	76.367902
388.000000	76.321752
387.000000	76.185048
386.000000	76.174593
385.000000	73.947624
384.000000	81.662568
383.000000	71.236889
382.000000	75.860359
381.000000	75.451372
380.000000	75.560627
379.000000	77.655089
378.000000	77.420012
377.000000	74.515678
376.000000	75.813152
375.000000	74.964395
374.000000	76.335014
373.000000	76.597735
372.000000	77.107921
371.000000	76.343972
370.000000	74.983937
369.000000	75.609756
368.000000	75.013480
367.000000	75.766535
366.000000	74.923447
365.000000	75.204873
364.000000	74.384401
363.000000	74.326448
362.000000	75.791752
361.000000	75.966406
360.000000	75.057287
359.000000	75.201845
358.000000	75.150159
357.000000	74.482109
356.000000	75.038539
355.000000	74.370195
354.000000	73.145295
353.000000	74.197054
352.000000	75.018615
351.000000	72.837559
350.000000	71.442543
349.000000	72.764228
348.000000	74.186279
347.000000	73.736485
346.000000	71.555443
345.000000	73.324905
344.000000	73.479882
343.000000	73.781426
342.000000	74.835829
341.000000	72.884464
340.000000	71.211526
339.000000	73.577128
338.000000	72.303824
337.000000	73.431635
336.000000	70.478723
335.000000	68.122912
334.000000	67.671121
333.000000	70.369859
332.000000	71.268606
331.000000	68.522073
330.000000	69.754307
329.000000	68.320984
328.000000	69.204002
327.000000	65.506464
326.000000	66.844700
325.000000	66.304048
324.000000	66.489287
323.000000	64.321538
322.000000	64.677602
321.000000	63.310677
320.000000	61.744301
319.000000	61.124624
318.000000	60.585422
317.000000	59.807496
316.000000	56.953837
315.000000	57.615305
314.000000	55.525687
313.000000	54.256441
312.000000	51.585977
311.000000	49.742580
310.000000	47.612467
309.000000	45.158301
308.000000	42.636746
307.000000	40.786782
306.000000	37.150529
305.000000	34.433056
304.000000	29.970949
303.000000	26.845199
302.000000	23.387097
301.000000	20.010013
300.000000	15.201342
299.000000	11.979609
298.000000	8.042803
297.000000	4.457263
296.000000	2.594881
295.000000	0.890472
294.000000	0.465283
293.000000	0.528715
292.000000	0.312156
291.000000	0.597907
290.000000	0.395480
289.000000	0.095877
288.000000	0.534249
287.000000	0.138149
286.000000	1.111773
285.000000	0.281350
284.000000	1.201874
283.000000	0.938967
282.000000	0.538972
281.000000	0.254561
280.000000	0.106929
279.000000	1.269636
278.000000	1.411509
277.000000	1.841298
276.000000	1.775148
275.000000	1.285461
274.000000	0.895055
273.000000	0.830341
272.000000	0.952813
271.000000	0.822106
270.000000	1.122052
269.000000	0.894701
268.000000	0.880853
267.000000	1.482511
266.000000	1.212969
265.000000	0.797560
264.000000	1.089015
263.000000	1.156752
262.000000	0.143644
261.000000	1.059730
260.000000	1.169306
259.000000	0.788372
258.000000	0.892193
257.000000	0.225394
256.000000	0.931755
255.000000	0.662589
254.000000	0.982420
253.000000	0.442478
252.000000	0.474934
251.000000	1.309460
250.000000	0.492072
