PE UV       SUBTECH     SPECTRUM    ASCII       PEDS        4.00        
   -1
SampleCrPWOorizzontale.Sample.asc
11/01/16
05:07:26.00
11/01/16
05:07:26.00
PerkinElmer Method Developer

250.000000
1
Lambda 35
502S12111107
PerkinElmer UV WinLab 6.0.4.0738 / Lambda35 1.27

480
2
1
0
0
Both on
1
1
1
None
0
0
0
0
 
 
0
0
0
0
0
 
 
 
0
 
0
326
0
 
0
 
 
 
0
0
0
 
0
 
 
 
0
 
 
0
0
0
0
0
 
 
 
 
0
0


0
0
#HDR
-1
-1
#GR
nm
%T
1.0
0.0
900.000000
-1.000000
651
8
77.057479
-0.856208
#DATA
900.000000	76.445073
899.000000	76.422327
898.000000	76.427977
897.000000	76.376293
896.000000	76.458446
895.000000	76.437008
894.000000	76.415234
893.000000	76.380792
892.000000	76.491872
891.000000	76.461531
890.000000	76.393932
889.000000	76.403934
888.000000	76.649822
887.000000	76.608334
886.000000	76.493324
885.000000	76.384693
884.000000	76.516070
883.000000	76.701292
882.000000	76.448522
881.000000	76.552146
880.000000	76.472089
879.000000	76.429339
878.000000	76.532498
877.000000	76.303342
876.000000	76.755360
875.000000	76.684448
874.000000	76.629645
873.000000	76.406713
872.000000	76.507688
871.000000	76.600753
870.000000	76.510629
869.000000	76.732699
868.000000	76.555427
867.000000	76.622007
866.000000	76.731258
865.000000	76.640865
864.000000	76.597215
863.000000	76.740591
862.000000	76.621852
861.000000	76.580045
860.000000	76.726356
859.000000	76.565602
858.000000	76.726549
857.000000	76.830454
856.000000	76.835792
855.000000	76.743556
854.000000	76.736243
853.000000	76.776016
852.000000	76.777741
851.000000	76.767237
850.000000	76.765637
849.000000	76.623306
848.000000	76.587714
847.000000	76.745079
846.000000	76.757973
845.000000	76.723474
844.000000	76.703889
843.000000	76.909914
842.000000	76.746237
841.000000	76.509549
840.000000	76.710664
839.000000	76.794020
838.000000	76.629412
837.000000	76.706560
836.000000	76.828321
835.000000	76.749486
834.000000	76.799911
833.000000	76.930770
832.000000	76.930781
831.000000	76.849376
830.000000	76.776169
829.000000	76.814662
828.000000	76.936796
827.000000	76.670561
826.000000	76.935520
825.000000	76.764411
824.000000	76.814584
823.000000	76.632494
822.000000	76.930804
821.000000	76.742631
820.000000	77.018737
819.000000	76.869497
818.000000	76.778254
817.000000	76.963788
816.000000	76.650170
815.000000	76.930357
814.000000	76.789190
813.000000	76.784623
812.000000	76.820051
811.000000	76.803065
810.000000	76.884199
809.000000	76.737345
808.000000	76.795702
807.000000	76.965295
806.000000	76.796192
805.000000	76.806063
804.000000	76.837564
803.000000	76.878421
802.000000	76.920951
801.000000	76.724423
800.000000	76.880207
799.000000	76.861600
798.000000	76.901036
797.000000	76.942549
796.000000	76.722717
795.000000	76.956450
794.000000	76.912943
793.000000	76.898196
792.000000	76.963552
791.000000	77.005260
790.000000	76.983259
789.000000	76.950820
788.000000	76.897455
787.000000	77.019651
786.000000	76.888671
785.000000	77.007299
784.000000	77.011870
783.000000	77.057479
782.000000	77.035627
781.000000	77.015363
780.000000	76.942274
779.000000	76.995229
778.000000	77.044912
777.000000	76.981459
776.000000	76.850999
775.000000	76.939305
774.000000	76.972546
773.000000	76.970809
772.000000	76.941316
771.000000	76.873385
770.000000	77.017062
769.000000	76.865993
768.000000	76.926386
767.000000	76.894570
766.000000	76.967288
765.000000	76.898327
764.000000	76.954026
763.000000	76.889675
762.000000	76.867509
761.000000	76.975835
760.000000	76.866631
759.000000	76.945692
758.000000	76.995355
757.000000	76.998186
756.000000	76.906667
755.000000	76.907085
754.000000	76.867380
753.000000	76.884181
752.000000	76.906295
751.000000	76.943129
750.000000	76.878121
749.000000	76.879749
748.000000	76.894885
747.000000	76.909593
746.000000	76.934516
745.000000	76.958183
744.000000	76.808059
743.000000	76.838196
742.000000	76.896972
741.000000	76.901871
740.000000	76.848074
739.000000	76.959771
738.000000	76.870532
737.000000	76.754897
736.000000	76.894561
735.000000	76.820491
734.000000	76.861167
733.000000	76.815199
732.000000	76.830237
731.000000	76.762761
730.000000	76.803851
729.000000	76.741971
728.000000	76.771258
727.000000	76.814815
726.000000	76.808297
725.000000	76.725598
724.000000	76.776072
723.000000	76.662259
722.000000	76.738279
721.000000	76.743571
720.000000	76.717335
719.000000	76.701086
718.000000	76.715595
717.000000	76.686271
716.000000	76.750596
715.000000	76.659779
714.000000	76.660835
713.000000	76.718651
712.000000	76.687702
711.000000	76.725419
710.000000	76.616282
709.000000	76.667021
708.000000	76.620481
707.000000	76.610890
706.000000	76.655330
705.000000	76.644160
704.000000	76.569394
703.000000	76.603553
702.000000	76.473715
701.000000	76.533163
700.000000	76.492180
699.000000	76.544196
698.000000	76.525397
697.000000	76.511640
696.000000	76.455858
695.000000	76.438312
694.000000	76.406292
693.000000	76.459922
692.000000	76.346667
691.000000	76.402455
690.000000	76.423155
689.000000	76.406475
688.000000	76.345866
687.000000	76.419634
686.000000	76.334776
685.000000	76.294118
684.000000	76.354785
683.000000	76.282496
682.000000	76.199893
681.000000	76.208278
680.000000	76.316493
679.000000	76.232489
678.000000	76.219251
677.000000	76.054909
676.000000	76.093808
675.000000	76.243448
674.000000	76.100562
673.000000	76.027982
672.000000	76.136789
671.000000	76.017519
670.000000	76.098813
669.000000	76.085911
668.000000	76.147966
667.000000	75.994440
666.000000	75.899434
665.000000	76.036325
664.000000	76.049343
663.000000	76.011314
662.000000	75.977564
661.000000	75.970109
660.000000	76.014091
659.000000	76.009818
658.000000	75.961590
657.000000	75.984861
656.000000	75.940531
655.000000	75.924347
654.000000	75.806967
653.000000	75.786783
652.000000	75.834929
651.000000	75.791434
650.000000	75.816750
649.000000	75.780627
648.000000	75.839498
647.000000	75.737914
646.000000	75.783703
645.000000	75.720362
644.000000	75.795908
643.000000	75.738733
642.000000	75.646953
641.000000	75.633466
640.000000	75.561336
639.000000	75.633197
638.000000	75.572884
637.000000	75.487908
636.000000	75.651851
635.000000	75.639529
634.000000	75.546593
633.000000	75.530560
632.000000	75.498938
631.000000	75.458886
630.000000	75.415053
629.000000	75.428359
628.000000	75.334324
627.000000	75.346025
626.000000	75.382084
625.000000	75.277144
624.000000	75.255873
623.000000	75.388862
622.000000	75.329157
621.000000	75.180390
620.000000	75.187052
619.000000	75.116723
618.000000	75.252043
617.000000	75.145982
616.000000	74.957582
615.000000	75.130029
614.000000	75.102192
613.000000	75.041156
612.000000	75.006633
611.000000	74.977464
610.000000	74.878075
609.000000	74.968160
608.000000	74.839497
607.000000	74.851443
606.000000	74.847472
605.000000	74.791611
604.000000	74.811551
603.000000	74.775588
602.000000	74.751766
601.000000	74.754342
600.000000	74.759705
599.000000	74.739528
598.000000	74.654549
597.000000	74.698219
596.000000	74.712827
595.000000	74.796185
594.000000	74.697640
593.000000	74.754640
592.000000	74.790410
591.000000	74.783677
590.000000	74.726038
589.000000	74.713873
588.000000	74.855274
587.000000	74.887291
586.000000	74.861775
585.000000	74.911338
584.000000	74.995962
583.000000	74.978444
582.000000	75.004047
581.000000	75.000000
580.000000	74.983787
579.000000	75.017574
578.000000	74.997292
577.000000	74.939081
576.000000	74.941731
575.000000	74.802211
574.000000	74.930831
573.000000	74.811316
572.000000	74.777416
571.000000	74.879043
570.000000	74.770068
569.000000	74.837901
568.000000	74.737301
567.000000	74.644434
566.000000	74.736785
565.000000	74.628983
564.000000	74.601702
563.000000	74.666812
562.000000	74.628253
561.000000	74.511735
560.000000	74.633238
559.000000	74.544160
558.000000	74.657234
557.000000	74.622522
556.000000	74.658324
555.000000	74.601605
554.000000	74.593228
553.000000	74.628835
552.000000	74.480598
551.000000	74.477448
550.000000	74.592331
549.000000	74.476642
548.000000	74.482873
547.000000	74.615087
546.000000	74.463389
545.000000	74.452232
544.000000	74.405255
543.000000	74.487484
542.000000	74.419633
541.000000	74.354437
540.000000	74.337116
539.000000	74.423248
538.000000	74.518403
537.000000	74.377185
536.000000	74.341886
535.000000	74.416667
534.000000	74.354408
533.000000	74.357119
532.000000	74.328391
531.000000	74.375279
530.000000	74.270083
529.000000	74.339349
528.000000	74.468204
527.000000	74.298673
526.000000	74.307503
525.000000	74.355952
524.000000	74.277051
523.000000	74.341661
522.000000	74.296171
521.000000	74.424639
520.000000	74.298459
519.000000	74.291041
518.000000	74.358974
517.000000	74.245427
516.000000	74.251191
515.000000	74.321100
514.000000	74.405101
513.000000	74.367593
512.000000	74.170751
511.000000	74.294689
510.000000	74.273788
509.000000	74.312715
508.000000	74.366925
507.000000	74.235632
506.000000	74.207650
505.000000	74.313409
504.000000	74.356899
503.000000	74.411867
502.000000	74.386352
501.000000	74.234946
500.000000	74.387333
499.000000	74.323378
498.000000	74.310103
497.000000	74.275680
496.000000	74.180688
495.000000	74.309392
494.000000	74.437375
493.000000	74.215617
492.000000	74.296025
491.000000	74.412254
490.000000	74.344959
489.000000	74.341242
488.000000	74.260973
487.000000	74.272194
486.000000	74.436903
485.000000	74.344445
484.000000	74.313145
483.000000	74.313927
482.000000	74.404617
481.000000	74.364755
480.000000	74.490732
479.000000	74.351903
478.000000	74.369851
477.000000	74.364198
476.000000	74.407378
475.000000	74.370113
474.000000	74.518602
473.000000	74.313075
472.000000	74.371513
471.000000	74.389784
470.000000	74.396410
469.000000	74.443528
468.000000	74.310817
467.000000	74.148488
466.000000	74.346824
465.000000	74.259974
464.000000	74.154621
463.000000	73.939198
462.000000	74.100579
461.000000	73.908510
460.000000	74.272960
459.000000	73.917898
458.000000	73.805753
457.000000	73.880844
456.000000	73.525896
455.000000	73.795221
454.000000	73.453281
453.000000	73.770050
452.000000	73.537153
451.000000	73.326112
450.000000	73.295763
449.000000	73.076923
448.000000	73.039249
447.000000	73.152930
446.000000	72.466566
445.000000	72.788548
444.000000	72.751397
443.000000	72.630914
442.000000	72.785078
441.000000	72.293513
440.000000	72.102790
439.000000	72.135025
438.000000	72.136111
437.000000	71.838038
436.000000	71.557562
435.000000	71.448448
434.000000	71.288804
433.000000	71.158270
432.000000	71.235334
431.000000	70.689139
430.000000	70.655378
429.000000	70.355461
428.000000	70.057186
427.000000	69.758373
426.000000	69.383667
425.000000	69.231365
424.000000	68.712470
423.000000	68.614226
422.000000	68.313310
421.000000	67.989544
420.000000	67.632773
419.000000	67.261381
418.000000	66.835301
417.000000	66.405429
416.000000	65.998539
415.000000	65.459883
414.000000	65.165313
413.000000	64.515331
412.000000	64.183310
411.000000	63.779462
410.000000	63.216947
409.000000	62.626178
408.000000	62.070716
407.000000	61.606460
406.000000	60.984784
405.000000	60.391450
404.000000	59.761781
403.000000	58.988374
402.000000	58.487278
401.000000	57.704774
400.000000	57.270239
399.000000	56.222301
398.000000	55.586244
397.000000	54.709203
396.000000	54.076674
395.000000	53.314617
394.000000	52.413417
393.000000	51.551487
392.000000	50.839019
391.000000	50.088233
390.000000	49.244121
389.000000	48.381042
388.000000	47.535876
387.000000	46.907951
386.000000	46.011627
385.000000	46.750727
384.000000	44.269552
383.000000	43.872248
382.000000	44.946940
381.000000	45.266833
380.000000	43.470927
379.000000	42.360972
378.000000	39.362136
377.000000	38.546036
376.000000	39.203567
375.000000	36.836216
374.000000	37.493569
373.000000	38.210537
372.000000	36.501861
371.000000	36.051320
370.000000	36.538873
369.000000	34.552846
368.000000	34.303893
367.000000	33.869908
366.000000	32.425634
365.000000	32.425249
364.000000	30.807799
363.000000	31.454872
362.000000	29.391661
361.000000	28.900138
360.000000	27.497709
359.000000	27.277970
358.000000	26.651749
357.000000	26.541902
356.000000	25.186766
355.000000	23.725606
354.000000	21.711306
353.000000	20.876600
352.000000	21.034996
351.000000	20.174694
350.000000	17.212714
349.000000	16.789850
348.000000	16.362043
347.000000	14.458134
346.000000	10.771378
345.000000	11.213654
344.000000	9.924155
343.000000	9.286814
342.000000	5.489887
341.000000	4.493057
340.000000	4.623445
339.000000	2.579787
338.000000	2.421596
337.000000	3.083110
336.000000	1.382979
335.000000	0.293921
334.000000	2.590674
333.000000	2.001104
332.000000	2.485320
331.000000	0.123389
330.000000	0.847218
329.000000	-0.083881
328.000000	0.043497
327.000000	1.449069
326.000000	0.136949
325.000000	0.123933
324.000000	0.490127
323.000000	0.390081
322.000000	0.339367
321.000000	0.495610
320.000000	0.467224
319.000000	-0.515095
318.000000	0.434720
317.000000	-0.102085
316.000000	-0.058806
315.000000	0.014830
314.000000	-0.283751
313.000000	0.195872
312.000000	0.607072
311.000000	-0.030285
310.000000	0.445263
309.000000	1.142857
308.000000	1.371357
307.000000	0.928403
306.000000	-0.173748
305.000000	-0.080077
304.000000	0.855391
303.000000	0.751143
302.000000	0.658328
301.000000	0.166889
300.000000	-0.117450
299.000000	0.356839
298.000000	-0.051778
297.000000	-0.471945
296.000000	-0.494263
295.000000	0.712378
294.000000	0.662133
293.000000	-0.492252
292.000000	0.183621
291.000000	-0.523169
290.000000	0.998117
289.000000	0.115053
288.000000	-0.228964
287.000000	0.276298
286.000000	-0.019853
285.000000	0.281350
284.000000	-0.468527
283.000000	0.816493
282.000000	-0.041459
281.000000	0.403055
280.000000	0.192472
279.000000	-0.710136
278.000000	0.390879
277.000000	0.745287
276.000000	-0.262985
275.000000	-0.088652
274.000000	0.872678
273.000000	-0.157092
272.000000	0.567151
271.000000	-0.182690
270.000000	0.755668
269.000000	0.802936
268.000000	0.231803
267.000000	-0.370628
266.000000	0.186611
265.000000	0.234577
264.000000	0.189394
263.000000	0.472144
262.000000	0.311228
261.000000	-0.529865
260.000000	-0.389769
259.000000	-0.197093
258.000000	0.198265
257.000000	0.726271
256.000000	-0.856208
255.000000	0.000000
254.000000	-0.180972
253.000000	0.312337
252.000000	0.343008
251.000000	0.748263
250.000000	0.054675
